Folder: BatteryLifecycle

Note: README.md
# BatteryLifecycle
Machine learning program for determining the lifecycle of battery using regression model

File: battery_ml.csv
,dq_min,dq_mean,dq_variance,dq_skewness,dq_kurtosis,slope_100_2,intercept_100_2,discharge_capacity_2,discharge_capacity_100,diff_QD_n_2,slope_100_91,intercept_100_91,ave_chg_time_5_1,max_temp_100_2,min_temp_100_2,Integral_temp_100_2,integral_resistance_2,minimum_IR,difference_IR_100_2,cycle_life
0,-0.00845964,-0.00287342,9.6636e-06,-0.532058,-1.34831,-0.000213746,1.09138,1.07069,1.07591,0.468365,4.57881e-05,1.07145,13.3749,31.6325,31.2669,18.742,0.0167424,0.0,-7.52e-05,1852
3,-0.0189605,-0.00745578,3.609e-05,-0.43905,-1.09542,1.84679e-05,1.08403,1.07972,1.08475,0.0065301,-1.85357e-06,1.08496,12.0251,29.983,29.857,18.641,0.0163697,0.0,3.8581e-05,1434
6,-0.037886,-0.0159651,0.000170264,-0.407936,-1.23807,-2.99255e-06,1.08109,1.07584,1.07924,0.0063032,-5.97024e-05,1.08525,10.0765,32.024,31.80961,15.2451,0.017002,0.0,-0.000333346,636
9,-0.0236915,-0.00837821,7.13023e-05,-0.594848,-1.20556,2.33482e-05,1.05892,1.05378,1.05997,0.0094604,-1.22083e-05,1.06117,11.6689,32.79211,32.5817,15.4002,0.0165751,0.0,-0.000303578,788
12,-0.0276067,-0.0124038,7.95401e-05,-0.12295,-1.2281,2.48222e-05,1.08523,1.08117,1.08632,0.0074255,-3.02845e-05,1.08934,10.1131,32.0467,31.9015,10.0018,0.01683085,0.0,-1.4819e-05,862
15,-0.0458927,-0.0201063,0.000239935,-0.273424,-1.27541,-9.38983e-06,1.08886,1.08511,1.08709,0.0041907,-6.10917e-05,1.09291,9.92474,32.6843,32.5238,14.2367,0.0164497,0.0,-6.6087e-05,788
18,-0.0299535,-0.0133406,9.10346e-05,-0.143174,-1.23061,-6.40726e-06,1.0828,1.07929,1.08169,0.004493,-2.02452e-05,1.08372,11.447,31.8673,31.6908,13.2046,0.0169378,0.0,-9.144e-06,1014
21,-0.0383545,-0.0178502,0.000160243,-0.117068,-1.27667,-1.46472e-05,1.09133,1.08765,1.08937,0.0038948,-0.000233001,1.11121,10.7648,33.08757,32.9742,12.4256,0.0163764,0.0,1.2888e-05,870
24,-0.0368684,-0.0166005,0.000145117,-0.13763,-1.27852,-4.31585e-06,1.08302,1.07945,1.08181,0.0043492,-3.4594e-05,1.08531,11.1795,32.5578,32.43998,11.5152,0.0166263,0.0,1.7818e-05,917
27,-0.0455663,-0.0207303,0.000225703,-0.155656,-1.27945,-1.19225e-05,1.08129,1.07784,1.07938,0.0038201,-3.49286e-05,1.08291,10.0964,32.857,32.6945,14.4072,0.0162395,0.0,5.1344e-05,731
30,-0.039152,-0.0182233,0.000168808,-0.0944873,-1.29992,4.07379e-06,1.07431,1.07075,1.07399,0.0050792,-2.45214e-05,1.07645,11.0512,31.9016,31.8,11.344,0.017059,0.0,3.2435e-05,703
33,-0.0564156,-0.0267642,0.000368937,-0.0638104,-1.34835,-8.89168e-06,1.07626,1.07295,1.07498,0.0036465,-1.85476e-06,1.07517,10.2431,33.4236,33.2059,11.7296,0.0162604,0.0,8.8964e-05,617
36,-0.0285063,-0.0123586,8.48176e-05,-0.231356,-1.24295,7.67538e-07,1.08286,1.07896,1.08217,0.0049075,-3.07071e-05,1.08525,12.0874,32.951,32.8092,11.429,0.0168569,0.0,-9.89e-07,1051
39,-0.0587971,-0.0293291,0.000379577,0.13908,-1.28928,-3.29747e-05,1.08853,1.08477,1.08471,0.0035624,-4.67643e-05,1.08942,10.2711,32.1824,32.04871,11.4936,0.0174364,0.0,0.000152771,616
42,-0.138026,-0.0776841,0.00187542,0.930997,-0.509431,-0.00108349,1.08411,1.07207,0.968339,0.0015459,-0.00134411,1.10349,10.3277,30.3673,29.5424,72.1514,0.0175821,0.0162673,-0.000832979,148
45,-0.0640082,-0.0322315,0.000444626,0.160034,-1.13737,-0.000104848,1.07727,1.0729,1.06509,0.0027499,-0.000187429,1.08391,10.1247,31.4689,31.2521,57.3134,0.0169361,0.0159978,-0.00085516,444
48,-0.0483221,-0.0235048,0.000236421,0.165527,-1.09104,-5.7932e-05,1.07452,1.06905,1.06705,0.0048897,-0.000182763,1.08505,10.115,31.4969,31.0985,41.163,0.0182658,0.0174799,-0.000579358,561
51,-0.076932,-0.0371685,0.000653404,-0.050699,-1.16187,-0.000119422,1.08509,1.080285,1.07162,0.0029318,-0.000189895,1.09058,10.2309,31.2006,30.9812,49.3994,0.0170873,0.0164801,-0.000497063,483
54,-0.0554333,-0.0265164,0.000296719,0.099581,-1.01157,-7.97734e-05,1.06822,1.063838,1.05881,0.0037714,-0.000135637,1.07236,10.186,31.0416,30.8648,41.2455,0.0175365,0.0166976,-0.000435537,487
57,-0.0587962,-0.0262088,0.000297484,0.128075,-1.19386,-4.26867e-05,1.08209,1.07688,1.07665,0.005137,-0.00016668,1.09276,10.1216,31.2733,30.8331,50.7482,0.0176554,0.0170461,-0.000258873,489
60,-0.0440373,-0.0195804,0.000201464,-0.140644,-1.17595,4.17166e-06,1.07189,1.06797,1.07101,0.0054579,-0.000117195,1.08247,10.0589,30.8605,30.4973,37.1542,0.0174887,0.0167777,-0.000260558,495
63,-0.0502499,-0.0230386,0.000274278,-0.0907819,-1.26596,2.2341e-06,1.07054,1.065841,1.06936,0.005946,-5.26071e-05,1.07471,10.1474,31.008,30.6002,41.1258,0.0176243,0.0171415,-0.00026701,468
66,-0.0472698,-0.0207637,0.000248431,-0.199114,-1.28909,1.01518e-05,1.07166,1.06728,1.071249,0.0058776,-6.28167e-05,1.07753,10.0973,31.2105,30.9368,34.6747,0.017789,0.017363,-0.00031568,481
69,-0.0431727,-0.0197429,0.000207195,-0.0747167,-1.35302,2.19274e-05,1.08348,1.079052,1.08479,0.006544,-2.1306e-05,1.08672,10.1292,31.6546,31.4247,48.2655,0.0176951,0.0174064,9.9076e-05,520
72,-0.0490234,-0.0204285,0.000272864,-0.329543,-1.32072,2.53938e-05,1.0839,1.079731,1.08524,0.0063388,-6.39024e-05,1.09133,10.1477,31.95656,31.3419,46.0432,0.02021559,0.0200222,9.9549e-05,535
75,-0.0520448,-0.0255129,0.000312178,0.0503028,-1.38719,3.34427e-05,1.08423,1.07846,1.08632,0.0084206,-3.95452e-05,1.09005,10.1445,30.8154,30.5098,33.0273,0.0181747,0.0178821,7.4465e-05,459
78,-0.0499718,-0.0236932,0.000258645,0.0767126,-1.24424,1.34039e-05,1.08246,1.07802,1.082616,0.0060867,-7.10107e-05,1.08956,10.1305,31.3054,31.0412,21.6901,0.0173945,0.0169976,-9.2953e-05,466
81,-0.043516,-0.0208557,0.000204919,0.0288603,-1.29721,-5.74594e-06,1.07482,1.07047,1.07304,0.0051856,-0.00010906,1.08362,10.0971,30.9838,30.8337,16.1493,0.0171533,0.0168356,-0.000126906,487
84,-0.0233117,-0.0101022,5.68702e-05,-0.195122,-1.17188,-4.50582e-06,1.07063,1.06746,1.06945,0.0039161,-5.44286e-05,1.07477,10.0445,32.1226,31.8784,72.695,0.015399,0.015158,-0.000128412,1009
87,-0.0248103,-0.0101064,6.63032e-05,-0.435859,-1.10812,-4.67437e-06,1.07479,1.07248,1.07386,0.0027885,-3.23298e-05,1.07699,10.045,32.126,31.9348,64.3198,0.0152468,0.0150422,-6.7334e-05,1048
90,-0.017059,-0.00703778,3.24532e-05,-0.340783,-1.20076,-1.17331e-06,1.07026,1.06752,1.06847,0.0033972,-1.9631e-06,1.06995,11.0416,32.5315,32.3646,65.8152,0.0155355,0.0153726,-3.5403e-05,1836
93,-0.019093,-0.00833518,3.87832e-05,-0.244956,-1.19188,-1.3241e-06,1.06447,1.06177,1.06239,0.0032262,-4.90464e-05,1.06852,11.045,32.1341,31.8876,73.5848,0.015551,0.0152766,-0.000143864,1078
96,-0.0276461,-0.0117655,8.04514e-05,-0.258269,-1.19794,-1.11423e-05,1.0693,1.065558,1.067306,0.0040867,-5.41786e-05,1.07267,10.0423,33.8424,33.1607,66.9107,0.0152504,0.0148379,-0.000145141,816
99,-0.013452,-0.0053233,2.02063e-05,-0.053272,-0.888633,-9.04925e-06,1.06398,1.061009,1.06256,0.0033309,-0.0001504,1.07683,11.0434,35.2887,34.5251,77.3953,0.0154539,0.0151478,-0.000120936,1638
102,-0.0252937,-0.0115455,6.73067e-05,-0.120878,-1.11188,-2.91858e-05,1.07422,1.07192,1.07086,0.0019749,-8.95571e-05,1.0797,10.0434,35.2306,34.8124,72.6101,0.0155558,0.0151783,-4.249e-05,1155
105,-0.0284093,-0.0137226,8.97796e-05,0.0529221,-1.26897,-1.54531e-05,1.05895,1.05626,1.0569,0.0028446,-4.86393e-05,1.06185,10.0434,34.7886,34.3548,64.8201,0.0158528,0.0156148,-0.000122983,1002
108,-0.0241791,-0.0101396,6.03243e-05,-0.342155,-1.06048,4.42736e-07,1.0751,1.07202,1.074435,0.0037909,-4.71119e-05,1.07908,10.0418,35.8024,35.0754,70.9816,0.0156934,0.0155386,-4.2369e-05,1028
111,-0.0289215,-0.0113006,8.63821e-05,-0.348449,-1.17976,5.47234e-06,1.07024,1.06637,1.06963,0.004832,-6.43071e-05,1.07598,10.0417,31.2711,31.1739,53.6559,0.0149623,0.0145522,-0.000165511,858
114,-0.0198859,-0.00784868,4.01885e-05,-0.420035,-1.00893,-1.18277e-05,1.06278,1.060272,1.06092,0.0026444,-5.52119e-05,1.06647,10.0433,33.2183,32.9063,82.0606,0.0155112,0.0152569,-0.000153993,1284
117,-0.0229818,-0.00990836,5.57882e-05,-0.251121,-1.09683,-2.13575e-05,1.06046,1.05753,1.05777,0.0030761,-7.49452e-05,1.06512,10.0438,36.3134,35.7064,75.1105,0.0152678,0.0150568,-8.8288e-05,923
120,-0.0220538,-0.00907886,5.06864e-05,-0.315431,-1.13851,-6.62501e-06,1.06336,1.05932,1.06176,0.00451,-4.20226e-05,1.06605,10.0436,33.9112,32.9819,66.842,0.0155619,0.0149956,-0.000234305,796
123,-0.016478,-0.00713175,3.01404e-05,-0.328143,-1.17713,4.36034e-07,1.07145,1.06955,1.07113,0.0025962,-1.11393e-05,1.07211,11.0376,32.6829,32.2652,77.5536,0.015742,0.0153885,-7.954e-05,1801